Folder: django-vue-20220725/djangobackend/media/ExperiData/2020020836/XRD

Note: README.md
# django-vue-20220725
Solar2Chart is a data management and processing tool specially developed for solar cell researchers. 
The system is based on the Web architecture of front and back end separation built by browser and server.

The front end of Solar2Chart consists of five modules, namely, 
the login and registration module, the system home page module, the data processing module, the data display module and the user information module.

File: 211118-001-001-XRD005.csv
Angle,Intensity
5.00657,750
5.16413,756
5.32169,748
5.47926,819
5.63682,801
5.79438,735
5.95195,691
6.10951,710
6.26707,743
6.42464,754
6.5822,722
6.73976,718
6.89733,666
7.05489,686
7.21245,685
7.37002,699
7.52758,704
7.68514,704
7.84271,638
8.00027,702
8.15783,682
8.3154,710
8.47296,702
8.63052,635
8.78809,630
8.94565,684
9.10321,686
9.26078,644
9.41834,634
9.5759,634
9.73347,571
9.89103,604
10.0486,637
10.2062,616
10.3637,597
10.5213,639
10.6788,610
10.8364,566
10.994,635
11.1515,641
11.3091,625
11.4667,632
11.6242,607
11.7818,602
11.9394,631
12.0969,597
12.2545,602
12.412,578
12.5696,590
12.7272,607
12.8847,542
13.0423,552
13.1999,556
13.3574,596
13.515,658
13.6726,924
13.8301,1670
13.9877,7303
14.1452,1029
14.3028,666
14.4604,648
14.6179,579
14.7755,576
14.9331,573
15.0906,539
15.2482,588
15.4057,519
15.5633,561
15.7209,522
15.8784,594
16.036,521
16.1936,546
16.3511,541
16.5087,568
16.6663,491
16.8238,481
16.9814,519
17.1389,570
17.2965,472
17.4541,497
17.6116,498
17.7692,502
17.9268,486
18.0843,476
18.2419,440
18.3995,476
18.557,462
18.7146,452
18.8721,478
19.0297,444
19.1873,507
19.3448,466
19.5024,529
19.66,524
19.8175,689
19.9751,540
20.1327,426
20.2902,426
20.4478,458
20.6053,436
20.7629,459
20.9205,451
21.078,442
21.2356,439
21.3932,443
21.5507,434
21.7083,425
21.8658,451
22.0234,472
22.181,448
22.3385,427
22.4961,430
22.6537,433
22.8112,422
22.9688,427
23.1264,426
23.2839,447
23.4415,420
23.599,444
23.7566,470
23.9142,449
24.0717,438
24.2293,565
24.3869,2143
24.5444,654
24.702,511
24.8596,415
25.0171,406
25.1747,410
25.3322,426
25.4898,462
25.6474,437
25.8049,381
25.9625,439
26.1201,427
26.2776,496
26.4352,713
26.5927,861
26.7503,487
26.9079,428
27.0654,390
27.223,374
27.3806,439
27.5381,444
27.6957,403
27.8533,437
28.0108,677
28.1684,3608
28.3259,1308
28.4835,489
28.6411,463
28.7986,425
28.9562,391
29.1138,426
29.2713,384
29.4289,403
29.5865,380
29.744,384
29.9016,365
30.0591,371
30.2167,331
30.3743,373
30.5318,387
30.6894,369
30.847,362
31.0045,354
31.1621,346
31.3197,358
31.4772,440
31.6348,1299
31.7923,402
31.9499,356
32.1075,284
32.265,331
32.4226,364
32.5802,325
32.7377,333
32.8953,318
33.0528,346
33.2104,334
33.368,310
33.5255,377
33.6831,453
33.8407,430
33.9982,332
34.1558,303
34.3134,296
34.4709,306
34.6285,370
34.786,538
34.9436,336
35.1012,304
35.2587,290
35.4163,298
35.5739,249
35.7314,289
35.889,283
36.0466,291
36.2041,272
36.3617,287
36.5192,234
36.6768,285
36.8344,307
36.9919,264
37.1495,295
37.3071,270
37.4646,327
37.6222,384
37.7798,817
37.9373,603
38.0949,324
38.2524,246
38.41,286
38.5676,247
38.7251,238
38.8827,289
39.0403,256
39.1978,228
39.3554,236
39.5129,279
39.6705,244
39.8281,270
39.9856,256
40.1432,286
40.3008,778
40.4583,465
40.6159,260
40.7735,247
40.931,239
41.0886,218
41.2461,234
41.4037,237
41.5613,226
41.7188,215
41.8764,265
42.034,257
42.1915,245
42.3491,267
42.5067,233
42.6642,284
42.8218,709
42.9793,640
43.1369,297
43.2945,230
43.452,212
43.6096,228
43.7672,229
43.9247,226
44.0823,223
44.2398,203
44.3974,209
44.555,207
44.7125,234
44.8701,206
45.0277,211
45.1852,203
45.3428,226
45.5004,226
45.6579,200
45.8155,214
45.973,205
46.1306,216
46.2882,168
46.4457,212
46.6033,217
46.7609,225
46.9184,222
47.076,205
47.2336,209
47.3911,206
47.5487,193
47.7062,230
47.8638,235
48.0214,182
48.1789,196
48.3365,209
48.4941,189
48.6516,181
48.8092,211
48.9668,189
49.1243,219
49.2819,183
49.4394,167
49.597,245
49.7546,258
49.9121,668
49.9909,587

File: 211118-001-002-XRD001.csv
Angle,Intensity
5.00657,779
5.16413,761
5.32169,775
5.47926,753
5.63682,686
5.79438,791
5.95195,735
6.10951,734
6.26707,705
6.42464,740
6.5822,737
6.73976,694
6.89733,681
7.05489,707
7.21245,683
7.37002,727
7.52758,689
7.68514,671
7.84271,637
8.00027,671
8.15783,715
8.3154,695
8.47296,702
8.63052,660
8.78809,689
8.94565,665
9.10321,641
9.26078,594
9.41834,621
9.5759,634
9.73347,660
9.89103,632
10.0486,651
10.2062,594
10.3637,601
10.5213,605
10.6788,657
10.8364,611
10.994,611
11.1515,569
11.3091,652
11.4667,628
11.6242,626
11.7818,648
11.9394,570
12.0969,586
12.2545,610
12.412,592
12.5696,632
12.7272,618
12.8847,564
13.0423,549
13.1999,617
13.3574,585
13.515,714
13.6726,875
13.8301,1787
13.9877,8523
14.1452,916
14.3028,647
14.4604,612
14.6179,618
14.7755,559
14.9331,609
15.0906,529
15.2482,559
15.4057,511
15.5633,538
15.7209,530
15.8784,510
16.036,536
16.1936,509
16.3511,548
16.5087,546
16.6663,499
16.8238,503
16.9814,492
17.1389,515
17.2965,515
17.4541,497
17.6116,535
17.7692,528
17.9268,493
18.0843,463
18.2419,500
18.3995,461
18.557,438
18.7146,447
18.8721,477
19.0297,482
19.1873,496
19.3448,479
19.5024,486
19.66,501
19.8175,859
19.9751,495
20.1327,485
20.2902,453
20.4478,457
20.6053,476
20.7629,462
20.9205,397
21.078,417
21.2356,448
21.3932,485
21.5507,493
21.7083,444
21.8658,474
22.0234,414
22.181,416
22.3385,451
22.4961,427
22.6537,434
22.8112,405
22.9688,419
23.1264,420
23.2839,413
23.4415,424
23.599,460
23.7566,439
23.9142,482
24.0717,436
24.2293,656
24.3869,1993
24.5444,519
24.702,470
24.8596,477
25.0171,395
25.1747,435
25.3322,443
25.4898,395
25.6474,423
25.8049,442
25.9625,409
26.1201,459
26.2776,546
26.4352,691
26.5927,686
26.7503,464
26.9079,448
27.0654,366
27.223,480
27.3806,461
27.5381,445
27.6957,453
27.8533,453
28.0108,771
28.1684,4851
28.3259,932
28.4835,529
28.6411,420
28.7986,435
28.9562,369
29.1138,414
29.2713,401
29.4289,361
29.5865,357
29.744,355
29.9016,397
30.0591,371
30.2167,349
30.3743,346
30.5318,347
30.6894,352
30.847,367
31.0045,339
31.1621,369
31.3197,420
31.4772,498
31.6348,1372
31.7923,381
31.9499,339
32.1075,364
32.265,340
32.4226,337
32.5802,334
32.7377,334
32.8953,351
33.0528,283
33.2104,317
33.368,318
33.5255,332
33.6831,382
33.8407,379
33.9982,348
34.1558,318
34.3134,310
34.4709,283
34.6285,407
34.786,599
34.9436,332
35.1012,273
35.2587,326
35.4163,281
35.5739,272
35.7314,258
35.88899,260
36.0466,256
36.2041,249
36.3617,281
36.5192,309
36.6768,231
36.8344,301
36.9919,264
37.1495,284
37.3071,290
37.4646,260
37.6222,361
37.7798,790
37.9373,600
38.0949,300
38.2524,272
38.41,237
38.5676,255
38.7251,258
38.8827,243
39.0403,264
39.1978,256
39.3554,234
39.5129,229
39.6705,221
39.8281,220
39.9856,292
40.1432,304
40.3008,978
40.4583,396
40.6159,256
40.7735,227
40.931,210
41.0886,242
41.2461,240
41.4037,205
41.5613,232
41.7188,236
41.8764,239
42.034,242
42.1915,248
42.3491,246
42.5067,273
42.6642,291
42.8218,841
42.9793,576
43.1369,255
43.2945,240
43.452,210
43.6096,213
43.7672,201
43.9247,238
44.0823,198
44.2398,235
44.3974,246
44.555,215
44.7125,214
44.8701,202
45.0277,210
45.1852,189
45.3428,216
45.5004,201
45.6579,196
45.8155,223
45.973,197
46.1306,172
46.2882,166
46.4457,186
46.6033,184
46.7609,220
46.9184,202
47.076,186
47.2336,217
47.3911,191
47.5487,217
47.7062,243
47.8638,208
48.0214,201
48.1789,195
48.3365,202
48.4941,193
48.6516,193
48.8092,223
48.9668,184
49.1243,187
49.2819,172
49.4394,181
49.597,206
49.7546,236
49.9121,611
49.9909,506